{
  "entry" : [
    {
      "fullUrl" : "https://cockpit-ci.glinttlab.com/fhir-server/MessageHeader/e383c383-820c-41cf-b9f0-78cdcb7d8329",
      "resource" : {
        "resourceType" : "MessageHeader",
        "id" : "e383c383-820c-41cf-b9f0-78cdcb7d8329",
        "meta" : {
          "lastUpdated" : "2024-11-12T15:26:51+00:00"
        },
        "eventCoding" : {
          "display" : "ADT^A04"
        },
        "destination" : [
          {
            "name" : "viewer",
            "endpoint" : "https://cockpit-ci.glinttlab.com/fhir-api/fhir-R4"
          }
        ],
        "sender" : {
          "display" : "E2E_TESTS_SENDER"
        },
        "source" : {
          "name" : "tests",
          "endpoint" : "https://cockpit-ci.glinttlab.com/fhir-server"
        }
      }
    },
    {
      "fullUrl" : "https://cockpit-ci.glinttlab.com/fhir-server/Patient/97224932-5016-46fe-a09b-92f41254298d",
      "resource" : {
        "resourceType" : "Patient",
        "id" : "97224932-5016-46fe-a09b-92f41254298d",
        "identifier" : [
          {
            "use" : "official",
            "type" : {
              "coding" : [
                {
                  "system" : "http://terminology.hl7.org/CodeSystem/v2-0203",
                  "code" : "PI"
                }
              ]
            },
            "system" : "http://example.com/System_Test",
            "value" : "97224932-5016-46fe-a09b-92f41254298d",
            "assigner" : {
              "display" : "E2E_TESTS_SYSTEM"
            }
          },
          {
            "use" : "usual",
            "type" : {
              "coding" : [
                {
                  "system" : "http://terminology.hl7.org/CodeSystem/v2-0203",
                  "code" : "PI"
                }
              ]
            },
            "system" : "http://example.com/System_Test",
            "value" : "97224932-5016-46fe-a09b-92f41254298d",
            "assigner" : {
              "display" : "E2E_TESTS_SYSTEM"
            }
          },
          {
            "assigner" : {
              "display" : "E2E_TESTS_SYSTEM"
            },
            "system" : "https://glintt.com/viewer",
            "use" : "official",
            "value" : "97224932-5016-46fe-a09b-92f41254298d"
          }
        ],
        "address" : [
          {
            "use" : "home",
            "type" : "both",
            "text" : "0933 Jeff Rue",
            "district" : "Whittier",
            "postalCode" : "40824"
          }
        ],
        "name" : [
          {
            "use" : "official",
            "text" : "Ismael Rempel"
          }
        ],
        "telecom" : [
          {
            "system" : "email",
            "use" : "home",
            "value" : "Susana46@gmail.com"
          },
          {
            "system" : "phone",
            "value" : "274.404.8375 x2421",
            "use" : "home"
          }
        ],
        "gender" : "female",
        "birthDate" : "1970-03-14",
        "deceasedBoolean" : false,
        "generalPractitioner" : [
          {
            "reference" : "Practitioner/1ab23c4d-5e6f-7a8b-9c0d-1e2f3a4b5c6d",
            "type" : "Practitioner"
          }
        ]
      }
    },
    {
      "fullUrl" : "https://cockpit-ci.glinttlab.com/fhir-server/Encounter/a2c66149-3c15-41de-9950-c14001a93c91",
      "resource" : {
        "resourceType" : "Encounter",
        "id" : "a2c66149-3c15-41de-9950-c14001a93c91",
        "identifier" : [
          {
            "assigner" : {
              "display" : "E2E_TESTS_SYSTEM"
            },
            "system" : "http://E2E-TESTS-SYSTEM.com",
            "use" : "official",
            "value" : "a2c66149-3c15-41de-9950-c14001a93c91"
          },
          {
            "assigner" : {
              "display" : "E2E_TESTS_SYSTEM"
            },
            "system" : "http://E2E-TESTS-SYSTEM.com",
            "use" : "usual",
            "value" : "a2c66149-3c15-41de-9950-c14001a93c91"
          },
          {
            "assigner" : {
              "display" : "E2E_TESTS_SYSTEM"
            },
            "system" : "https://glintt.com/viewer",
            "use" : "official",
            "value" : "a2c66149-3c15-41de-9950-c14001a93c91"
          }
        ],
        "status" : "in-progress",
        "class" : {
          "system" : "http://terminology.hl7.org/CodeSystem/v3-ActCode",
          "code" : "EMER",
          "display" : "emergency"
        },
        "subject" : {
          "reference" : "Patient/97224932-5016-46fe-a09b-92f41254298d"
        },
        "period" : {
          "start" : "2024-11-12T15:26:51+00:00"
        },
        "location" : [
          {
            "location" : {
              "reference" : "Location/34f12e96-982a-4b3d-bff4-e7228b71d27f"
            },
            "status" : "active",
            "physicalType" : {
              "coding" : [
                {
                  "system" : "https://terminology.hl7.org/2.0.0/CodeSystem-location-physical-type.html",
                  "code" : "bd"
                }
              ]
            }
          },
          {
            "location" : {
              "reference" : "Location/aa2a08d2-395d-4a03-b262-ca7a1da939d0"
            },
            "status" : "active",
            "physicalType" : {
              "coding" : [
                {
                  "system" : "https://terminology.hl7.org/2.0.0/CodeSystem-location-physical-type.html",
                  "code" : "ro"
                }
              ]
            }
          },
          {
            "location" : {
              "reference" : "Location/0927bdcf-fd8b-4ba6-860a-199c339f7262"
            },
            "status" : "active",
            "physicalType" : {
              "coding" : [
                {
                  "system" : "https://terminology.hl7.org/2.0.0/CodeSystem-location-physical-type.html",
                  "code" : "co"
                }
              ]
            }
          },
          {
            "location" : {
              "reference" : "Location/6222160a-18eb-45bd-b240-8acc608f15a0"
            },
            "status" : "active",
            "physicalType" : {
              "coding" : [
                {
                  "system" : "https://terminology.hl7.org/2.0.0/CodeSystem-location-physical-type.html",
                  "code" : "lvl"
                }
              ]
            }
          },
          {
            "location" : {
              "reference" : "Location/dc3adc82-90ae-4593-acce-9db81f6f090c"
            },
            "status" : "active",
            "physicalType" : {
              "coding" : [
                {
                  "system" : "https://terminology.hl7.org/2.0.0/CodeSystem-location-physical-type.html",
                  "code" : "wa"
                }
              ]
            }
          },
          {
            "location" : {
              "reference" : "Location/c9783cbf-9b8b-46fe-b91f-f511bd296975"
            },
            "status" : "active",
            "physicalType" : {
              "coding" : [
                {
                  "system" : "https://terminology.hl7.org/2.0.0/CodeSystem-location-physical-type.html",
                  "code" : "wi"
                }
              ]
            }
          },
          {
            "location" : {
              "reference" : "Location/49fe9063-eb62-4a04-b165-ea9fd2e9a217"
            },
            "status" : "active",
            "physicalType" : {
              "coding" : [
                {
                  "system" : "https://terminology.hl7.org/2.0.0/CodeSystem-location-physical-type.html",
                  "code" : "si"
                }
              ]
            }
          },
          {
            "location" : {
              "reference" : "Location/a10c96c9-d781-456a-93e9-543036c8b00e"
            },
            "status" : "active",
            "physicalType" : {
              "coding" : [
                {
                  "system" : "https://terminology.hl7.org/2.0.0/CodeSystem-location-physical-type.html",
                  "code" : "bu"
                }
              ]
            }
          }
        ],
        "participant" : [
          {
            "type" : [
              {
                "coding" : [
                  {
                    "system" : "http://terminology.hl7.org/CodeSystem/v3-ParticipationType",
                    "code" : "ATND",
                    "display" : "attender"
                  }
                ]
              }
            ],
            "individual" : {
              "reference" : "Practitioner/1ab23c4d-5e6f-7a8b-9c0d-1e2f3a4b5c6d"
            }
          }
        ]
      }
    },
    {
      "fullUrl" : "https://cockpit-ci.glinttlab.com/fhir-server/Practitioner/1ab23c4d-5e6f-7a8b-9c0d-1e2f3a4b5c6d",
      "resource" : {
        "resourceType" : "Practitioner",
        "active" : true,
        "id" : "1ab23c4d-5e6f-7a8b-9c0d-1e2f3a4b5c6d",
        "identifier" : [
          {
            "use" : "official",
            "system" : "http://E2E-TESTS-SYSTEM.com",
            "type" : {
              "coding" : [
                {
                  "system" : "http://terminology.hl7.org/CodeSystem/v2-0203",
                  "code" : "MD"
                }
              ],
              "text" : "Cart達o de Cidad達o"
            },
            "value" : "1ab23c4d-5e6f-7a8b-9c0d-1e2f3a4b5c6d",
            "assigner" : {
              "display" : "E2E_TESTS_SYSTEM"
            }
          },
          {
            "use" : "usual",
            "system" : "http://E2E-TESTS-SYSTEM.com",
            "type" : {
              "coding" : [
                {
                  "system" : "http://terminology.hl7.org/CodeSystem/v2-0203",
                  "code" : "MD"
                }
              ],
              "text" : "Cart達o de Cidad達o"
            },
            "value" : "1ab23c4d-5e6f-7a8b-9c0d-1e2f3a4b5c6d",
            "assigner" : {
              "display" : "E2E_TESTS_SYSTEM"
            }
          },
          {
            "assigner" : {
              "display" : "E2E_TESTS_SYSTEM"
            },
            "system" : "https://glintt.com/viewer",
            "use" : "official",
            "value" : "1ab23c4d-5e6f-7a8b-9c0d-1e2f3a4b5c6d"
          }
        ],
        "name" : [
          {
            "use" : "official",
            "text" : "doctor viewer test"
          }
        ],
        "gender" : "male"
      }
    },
    {
      "fullUrl" : "https://cockpit-ci.glinttlab.com/fhir-server/Location/34f12e96-982a-4b3d-bff4-e7228b71d27f",
      "resource" : {
        "resourceType" : "Location",
        "id" : "34f12e96-982a-4b3d-bff4-e7228b71d27f",
        "identifier" : [
          {
            "assigner" : {
              "display" : "E2E_TESTS_SYSTEM"
            },
            "system" : "http://E2E-TESTS-SYSTEM.com",
            "use" : "official",
            "value" : "34f12e96-982a-4b3d-bff4-e7228b71d27f"
          },
          {
            "assigner" : {
              "display" : "E2E_TESTS_SYSTEM"
            },
            "system" : "http://E2E-TESTS-SYSTEM.com",
            "use" : "usual",
            "value" : "34f12e96-982a-4b3d-bff4-e7228b71d27f"
          },
          {
            "assigner" : {
              "display" : "E2E_TESTS_SYSTEM"
            },
            "system" : "https://glintt.com/viewer",
            "use" : "official",
            "value" : "34f12e96-982a-4b3d-bff4-e7228b71d27f"
          }
        ],
        "status" : "active",
        "mode" : "instance",
        "name" : "ab",
        "physicalType" : {
          "coding" : [
            {
              "system" : "https://terminology.hl7.org/2.0.0/CodeSystem-location-physical-type.html",
              "code" : "bd",
              "display" : "Bed"
            }
          ]
        },
        "partOf" : {
          "reference" : "Location/aa2a08d2-395d-4a03-b262-ca7a1da939d0"
        }
      }
    },
    {
      "fullUrl" : "https://cockpit-ci.glinttlab.com/fhir-server/Location/aa2a08d2-395d-4a03-b262-ca7a1da939d0",
      "resource" : {
        "resourceType" : "Location",
        "id" : "aa2a08d2-395d-4a03-b262-ca7a1da939d0",
        "identifier" : [
          {
            "assigner" : {
              "display" : "E2E_TESTS_SYSTEM"
            },
            "system" : "http://E2E-TESTS-SYSTEM.com",
            "use" : "official",
            "value" : "aa2a08d2-395d-4a03-b262-ca7a1da939d0"
          },
          {
            "assigner" : {
              "display" : "E2E_TESTS_SYSTEM"
            },
            "system" : "http://E2E-TESTS-SYSTEM.com",
            "use" : "usual",
            "value" : "aa2a08d2-395d-4a03-b262-ca7a1da939d0"
          },
          {
            "assigner" : {
              "display" : "E2E_TESTS_SYSTEM"
            },
            "system" : "https://glintt.com/viewer",
            "use" : "official",
            "value" : "aa2a08d2-395d-4a03-b262-ca7a1da939d0"
          }
        ],
        "status" : "active",
        "mode" : "instance",
        "name" : "ab",
        "physicalType" : {
          "coding" : [
            {
              "system" : "https://terminology.hl7.org/2.0.0/CodeSystem-location-physical-type.html",
              "code" : "ro",
              "display" : "Room"
            }
          ]
        },
        "partOf" : {
          "reference" : "Location/0927bdcf-fd8b-4ba6-860a-199c339f7262"
        }
      }
    },
    {
      "fullUrl" : "https://cockpit-ci.glinttlab.com/fhir-server/Location/0927bdcf-fd8b-4ba6-860a-199c339f7262",
      "resource" : {
        "resourceType" : "Location",
        "id" : "0927bdcf-fd8b-4ba6-860a-199c339f7262",
        "identifier" : [
          {
            "assigner" : {
              "display" : "E2E_TESTS_SYSTEM"
            },
            "system" : "http://E2E-TESTS-SYSTEM.com",
            "use" : "official",
            "value" : "0927bdcf-fd8b-4ba6-860a-199c339f7262"
          },
          {
            "assigner" : {
              "display" : "E2E_TESTS_SYSTEM"
            },
            "system" : "http://E2E-TESTS-SYSTEM.com",
            "use" : "usual",
            "value" : "0927bdcf-fd8b-4ba6-860a-199c339f7262"
          },
          {
            "assigner" : {
              "display" : "E2E_TESTS_SYSTEM"
            },
            "system" : "https://glintt.com/viewer",
            "use" : "official",
            "value" : "0927bdcf-fd8b-4ba6-860a-199c339f7262"
          }
        ],
        "status" : "active",
        "mode" : "instance",
        "name" : "quisquam",
        "physicalType" : {
          "coding" : [
            {
              "system" : "https://terminology.hl7.org/2.0.0/CodeSystem-location-physical-type.html",
              "code" : "co",
              "display" : "Corridor"
            }
          ]
        },
        "partOf" : {
          "reference" : "Location/6222160a-18eb-45bd-b240-8acc608f15a0"
        }
      }
    },
    {
      "fullUrl" : "https://cockpit-ci.glinttlab.com/fhir-server/Location/6222160a-18eb-45bd-b240-8acc608f15a0",
      "resource" : {
        "resourceType" : "Location",
        "id" : "6222160a-18eb-45bd-b240-8acc608f15a0",
        "identifier" : [
          {
            "assigner" : {
              "display" : "E2E_TESTS_SYSTEM"
            },
            "system" : "http://E2E-TESTS-SYSTEM.com",
            "use" : "official",
            "value" : "6222160a-18eb-45bd-b240-8acc608f15a0"
          },
          {
            "assigner" : {
              "display" : "E2E_TESTS_SYSTEM"
            },
            "system" : "http://E2E-TESTS-SYSTEM.com",
            "use" : "usual",
            "value" : "6222160a-18eb-45bd-b240-8acc608f15a0"
          },
          {
            "assigner" : {
              "display" : "E2E_TESTS_SYSTEM"
            },
            "system" : "https://glintt.com/viewer",
            "use" : "official",
            "value" : "6222160a-18eb-45bd-b240-8acc608f15a0"
          }
        ],
        "status" : "active",
        "mode" : "instance",
        "name" : "praesentium",
        "physicalType" : {
          "coding" : [
            {
              "system" : "https://terminology.hl7.org/2.0.0/CodeSystem-location-physical-type.html",
              "code" : "lvl",
              "display" : "Level"
            }
          ]
        },
        "partOf" : {
          "reference" : "Location/dc3adc82-90ae-4593-acce-9db81f6f090c"
        }
      }
    },
    {
      "fullUrl" : "https://cockpit-ci.glinttlab.com/fhir-server/Location/dc3adc82-90ae-4593-acce-9db81f6f090c",
      "resource" : {
        "resourceType" : "Location",
        "id" : "dc3adc82-90ae-4593-acce-9db81f6f090c",
        "identifier" : [
          {
            "assigner" : {
              "display" : "E2E_TESTS_SYSTEM"
            },
            "system" : "http://E2E-TESTS-SYSTEM.com",
            "use" : "official",
            "value" : "dc3adc82-90ae-4593-acce-9db81f6f090c"
          },
          {
            "assigner" : {
              "display" : "E2E_TESTS_SYSTEM"
            },
            "system" : "http://E2E-TESTS-SYSTEM.com",
            "use" : "usual",
            "value" : "dc3adc82-90ae-4593-acce-9db81f6f090c"
          },
          {
            "assigner" : {
              "display" : "E2E_TESTS_SYSTEM"
            },
            "system" : "https://glintt.com/viewer",
            "use" : "official",
            "value" : "dc3adc82-90ae-4593-acce-9db81f6f090c"
          }
        ],
        "status" : "active",
        "mode" : "instance",
        "name" : "My Awsome Test Location",
        "physicalType" : {
          "coding" : [
            {
              "system" : "https://terminology.hl7.org/2.0.0/CodeSystem-location-physical-type.html",
              "code" : "wa",
              "display" : "Ward"
            }
          ]
        },
        "partOf" : {
          "reference" : "Location/c9783cbf-9b8b-46fe-b91f-f511bd296975"
        }
      }
    },
    {
      "fullUrl" : "https://cockpit-ci.glinttlab.com/fhir-server/Location/c9783cbf-9b8b-46fe-b91f-f511bd296975",
      "resource" : {
        "resourceType" : "Location",
        "id" : "c9783cbf-9b8b-46fe-b91f-f511bd296975",
        "identifier" : [
          {
            "assigner" : {
              "display" : "E2E_TESTS_SYSTEM"
            },
            "system" : "http://E2E-TESTS-SYSTEM.com",
            "use" : "official",
            "value" : "c9783cbf-9b8b-46fe-b91f-f511bd296975"
          },
          {
            "assigner" : {
              "display" : "E2E_TESTS_SYSTEM"
            },
            "system" : "http://E2E-TESTS-SYSTEM.com",
            "use" : "usual",
            "value" : "c9783cbf-9b8b-46fe-b91f-f511bd296975"
          },
          {
            "assigner" : {
              "display" : "E2E_TESTS_SYSTEM"
            },
            "system" : "https://glintt.com/viewer",
            "use" : "official",
            "value" : "c9783cbf-9b8b-46fe-b91f-f511bd296975"
          }
        ],
        "status" : "active",
        "mode" : "instance",
        "name" : "sint",
        "physicalType" : {
          "coding" : [
            {
              "system" : "https://terminology.hl7.org/2.0.0/CodeSystem-location-physical-type.html",
              "code" : "wi",
              "display" : "Wing"
            }
          ]
        },
        "partOf" : {
          "reference" : "Location/49fe9063-eb62-4a04-b165-ea9fd2e9a217"
        }
      }
    },
    {
      "fullUrl" : "https://cockpit-ci.glinttlab.com/fhir-server/Location/49fe9063-eb62-4a04-b165-ea9fd2e9a217",
      "resource" : {
        "resourceType" : "Location",
        "id" : "49fe9063-eb62-4a04-b165-ea9fd2e9a217",
        "identifier" : [
          {
            "assigner" : {
              "display" : "E2E_TESTS_SYSTEM"
            },
            "system" : "http://E2E-TESTS-SYSTEM.com",
            "use" : "official",
            "value" : "49fe9063-eb62-4a04-b165-ea9fd2e9a217"
          },
          {
            "assigner" : {
              "display" : "E2E_TESTS_SYSTEM"
            },
            "system" : "http://E2E-TESTS-SYSTEM.com",
            "use" : "usual",
            "value" : "49fe9063-eb62-4a04-b165-ea9fd2e9a217"
          },
          {
            "assigner" : {
              "display" : "E2E_TESTS_SYSTEM"
            },
            "system" : "https://glintt.com/viewer",
            "use" : "official",
            "value" : "49fe9063-eb62-4a04-b165-ea9fd2e9a217"
          }
        ],
        "status" : "active",
        "mode" : "instance",
        "name" : "suscipit",
        "physicalType" : {
          "coding" : [
            {
              "system" : "https://terminology.hl7.org/2.0.0/CodeSystem-location-physical-type.html",
              "code" : "si",
              "display" : "Site"
            }
          ]
        },
        "partOf" : {
          "reference" : "Location/a10c96c9-d781-456a-93e9-543036c8b00e"
        }
      }
    },
    {
      "fullUrl" : "https://cockpit-ci.glinttlab.com/fhir-server/Location/a10c96c9-d781-456a-93e9-543036c8b00e",
      "resource" : {
        "resourceType" : "Location",
        "id" : "a10c96c9-d781-456a-93e9-543036c8b00e",
        "identifier" : [
          {
            "assigner" : {
              "display" : "E2E_TESTS_SYSTEM"
            },
            "system" : "http://E2E-TESTS-SYSTEM.com",
            "use" : "official",
            "value" : "a10c96c9-d781-456a-93e9-543036c8b00e"
          },
          {
            "assigner" : {
              "display" : "E2E_TESTS_SYSTEM"
            },
            "system" : "http://E2E-TESTS-SYSTEM.com",
            "use" : "usual",
            "value" : "a10c96c9-d781-456a-93e9-543036c8b00e"
          },
          {
            "assigner" : {
              "display" : "E2E_TESTS_SYSTEM"
            },
            "system" : "https://glintt.com/viewer",
            "use" : "official",
            "value" : "a10c96c9-d781-456a-93e9-543036c8b00e"
          }
        ],
        "status" : "active",
        "mode" : "instance",
        "name" : "eum",
        "physicalType" : {
          "coding" : [
            {
              "system" : "https://terminology.hl7.org/2.0.0/CodeSystem-location-physical-type.html",
              "code" : "bu",
              "display" : "Building"
            }
          ]
        }
      }
    }
  ],
  "id": "11aaff57-acb7-48b3-9cda-58e5f2e4aa9e",
  "identifier" : {
    "value" : "11aaff57-acb7-48b3-9cda-58e5f2e4aa9e"
  },
  "resourceType" : "Bundle",
  "timestamp" : "2024-11-12T15:26:51+00:00",
  "type" : "message"
}